square,loc1,loc2,corrAns,trialsNum,trialNum,trials1.thisRepN,trials1.thisTrialN,trials1.thisN,trials1.thisIndex,trials2.thisRepN,trials2.thisTrialN,trials2.thisN,trials2.thisIndex,trials3.thisRepN,trials3.thisTrialN,trials3.thisN,trials3.thisIndex,instr1.started,instr1.stopped,fix1.started,fix1.stopped,trialGrid.started,trialGrid.stopped,trialSquare.started,trialSquare.stopped,trialFix.started,trialFix.stopped,trialResp.keys,trialResp.corr,trialResp.started,trialResp.stopped,trialResp.rt,instr2.started,instr2.stopped,fix2.started,fix2.stopped,instr3.started,instr3.stopped,fix3.started,fix3.stopped,thanks.started,thanks.stopped,participant,session,date,expName,psychopyVersion,frameRate,
6,0.2,0.0,None,1,1,0,0,0,0,,,,,,,,,17.252734299981967,None,22.536586900008842,None,23.647726399998646,None,23.647726399998646,24.650629799987655,24.637813900015317,None,None,1,23.647726399998646,None,,,,,,,,,,,,a,001,2020_Jun_16_1426,n-back-testing,2020.1.3,None,
6,0.2,0.0,space,1,2,0,1,1,1,,,,,,,,,,,,,25.551801100024022,None,25.551801100024022,26.54915879998589,26.534174899978098,None,space,1,25.551801100024022,None,0.4767441999865696,,,,,,,,,,,a,001,2020_Jun_16_1426,n-back-testing,2020.1.3,None,
2,0.0,0.2,None,1,3,0,2,2,2,,,,,,,,,,,,,27.549272199976258,None,27.549272199976258,28.55011289997492,28.53586320002796,None,None,1,27.549272199976258,None,,,,,,,,,,,,a,001,2020_Jun_16_1426,n-back-testing,2020.1.3,None,
9,0.2,-0.2,None,1,4,0,3,3,3,,,,,,,,,,,,,29.550186500011478,None,29.550186500011478,30.548878100002185,30.535274799971376,None,None,1,29.550186500011478,None,,,,,,,,,,,,a,001,2020_Jun_16_1426,n-back-testing,2020.1.3,None,
9,0.2,-0.2,space,1,5,0,4,4,4,,,,,,,,,,,,,31.54953389998991,None,31.54953389998991,32.54755479999585,32.532537700026296,33.531079299980775,None,0,31.54953389998991,None,,,,,,,,,,,,a,001,2020_Jun_16_1426,n-back-testing,2020.1.3,None,
6,0.2,0.0,None,1,6,0,5,5,5,,,,,,,,,,,,,33.54764150001574,None,33.54764150001574,34.54683419998037,34.530615800002124,35.52983519999543,None,1,33.54764150001574,None,,,,,,,,,,,,a,001,2020_Jun_16_1426,n-back-testing,2020.1.3,None,
4,-0.2,0.0,None,1,7,0,6,6,6,,,,,,,,,,,,,35.5471151000238,None,35.5471151000238,36.546200999990106,36.529556500026956,37.529237299982924,None,1,35.5471151000238,None,,,,,,,,,,,,a,001,2020_Jun_16_1426,n-back-testing,2020.1.3,None,
3,0.2,0.2,None,1,8,0,7,7,7,,,,,,,,,,,,,37.546697599987965,None,37.546697599987965,38.56238439999288,38.52901400002884,39.52912129997276,None,1,37.546697599987965,None,,,,,,,,,,,,a,001,2020_Jun_16_1426,n-back-testing,2020.1.3,None,
3,0.2,0.2,space,1,9,0,8,8,8,,,,,,,,,,,,,39.54597699997248,None,39.54597699997248,40.545650899992324,40.528486000024714,41.528414400003385,None,0,39.54597699997248,None,,,,,,,,,,,,a,001,2020_Jun_16_1426,n-back-testing,2020.1.3,None,
8,0.0,-0.2,None,1,10,0,9,9,9,,,,,,,,,,,,,41.54577690002043,None,41.54577690002043,42.56115590000991,42.52778920001583,43.52767510002013,None,1,41.54577690002043,None,,,,,,,,,,,,a,001,2020_Jun_16_1426,n-back-testing,2020.1.3,None,
1,-0.2,0.2,None,1,11,0,10,10,10,,,,,,,,,,,,,43.54575940000359,None,43.54575940000359,44.56037889997242,44.52709009998944,45.52699169999687,None,1,43.54575940000359,None,,,,,,,,,,,,a,001,2020_Jun_16_1426,n-back-testing,2020.1.3,None,
2,0.0,0.2,None,1,12,0,11,11,11,,,,,,,,,,,,,45.544708299974445,None,45.544708299974445,46.560014299990144,46.526664300006814,47.52644290000899,None,1,45.544708299974445,None,,,,,,,,,,,,a,001,2020_Jun_16_1426,n-back-testing,2020.1.3,None,
4,-0.2,0.0,None,1,13,0,12,12,12,,,,,,,,,,,,,47.54444229998626,None,47.54444229998626,48.55948100000387,48.52618350001285,49.52598229999421,None,1,47.54444229998626,None,,,,,,,,,,,,a,001,2020_Jun_16_1426,n-back-testing,2020.1.3,None,
4,-0.2,0.0,space,1,14,0,13,13,13,,,,,,,,,,,,,49.54439629998524,None,49.54439629998524,50.559006299998146,50.525665000022855,51.52532940002857,None,0,49.54439629998524,None,,,,,,,,,,,,a,001,2020_Jun_16_1426,n-back-testing,2020.1.3,None,
8,0.0,-0.2,None,1,15,0,14,14,14,,,,,,,,,,,,,51.54325390001759,None,51.54325390001759,52.558600999997,52.525186499988195,53.52483419998316,None,1,51.54325390001759,None,,,,,,,,,,,,a,001,2020_Jun_16_1426,n-back-testing,2020.1.3,None,
5,0.0,0.0,None,1,16,0,15,15,15,,,,,,,,,,,,,53.54357560002245,None,53.54357560002245,54.55801490001613,54.525464900012594,55.52452729997458,None,1,53.54357560002245,None,,,,,,,,,,,,a,001,2020_Jun_16_1426,n-back-testing,2020.1.3,None,
5,0.0,0.0,space,1,17,0,16,16,16,,,,,,,,,,,,,55.54281409998657,None,55.54281409998657,56.558219099999405,56.52403819997562,57.523838700028136,None,0,55.54281409998657,None,,,,,,,,,,,,a,001,2020_Jun_16_1426,n-back-testing,2020.1.3,None,
1,-0.2,0.2,None,1,18,0,17,17,17,,,,,,,,,,,,,57.54414650000399,None,57.54414650000399,58.557250200014096,58.523578400025144,59.52324910002062,None,1,57.54414650000399,None,,,,,,,,,,,,a,001,2020_Jun_16_1426,n-back-testing,2020.1.3,None,
3,0.2,0.2,None,1,19,0,18,18,18,,,,,,,,,,,,,59.54238769999938,None,59.54238769999938,60.556407500000205,60.52300689998083,61.52289399999427,None,1,59.54238769999938,None,,,,,,,,,,,,a,001,2020_Jun_16_1426,n-back-testing,2020.1.3,None,
6,0.2,0.0,None,1,20,0,19,19,19,,,,,,,,,,,,,61.540275599982124,None,61.540275599982124,62.54306220001308,62.52356810000492,63.522303899982944,None,1,61.540275599982124,None,,,,,,,,,,,,a,001,2020_Jun_16_1426,n-back-testing,2020.1.3,None,
1,-0.2,0.2,None,1,21,0,20,20,20,,,,,,,,,,,,,63.54312829999253,None,63.54312829999253,64.55548839998664,64.52215410000645,65.52188950002892,None,1,63.54312829999253,None,,,,,,,,,,,,a,001,2020_Jun_16_1426,n-back-testing,2020.1.3,None,
1,-0.2,0.2,space,1,22,0,21,21,21,,,,,,,,,,,,,65.54022099997383,None,65.54022099997383,66.55487240001094,66.52150979998987,67.5216140000266,None,0,65.54022099997383,None,,,,,,,,,,,,a,001,2020_Jun_16_1426,n-back-testing,2020.1.3,None,
1,-0.2,0.2,space,1,23,0,22,22,22,,,,,,,,,,,,,67.5398806000012,None,67.5398806000012,68.55694779998157,68.52097459998913,69.52100329997484,None,0,67.5398806000012,None,,,,,,,,,,,,a,001,2020_Jun_16_1426,n-back-testing,2020.1.3,None,
3,0.2,0.2,None,1,24,0,23,23,23,,,,,,,,,,,,,69.53951829997823,None,69.53951829997823,70.55386390001513,70.52045980002731,71.52197340002749,None,1,69.53951829997823,None,,,,,,,,,,,,a,001,2020_Jun_16_1426,n-back-testing,2020.1.3,None,
2,0.0,0.2,None,1,25,0,24,24,24,,,,,,,,,,,,,71.54535299999407,None,71.54535299999407,72.55342740000924,72.5203804000048,73.51996659999713,None,1,71.54535299999407,None,,,,,,,,,,,,a,001,2020_Jun_16_1426,n-back-testing,2020.1.3,None,
1,-0.2,0.2,None,1,26,0,25,25,25,,,,,,,,,,,,,73.5545359000098,None,73.5545359000098,74.55291510000825,74.53750889998628,75.5370152000105,None,1,73.5545359000098,None,,,,,,,,,,,,a,001,2020_Jun_16_1426,n-back-testing,2020.1.3,None,
7,-0.2,-0.2,None,1,27,0,26,26,26,,,,,,,,,,,,,75.5528860000195,None,75.5528860000195,76.55230119999032,76.53727540001273,77.53730440000072,None,1,75.5528860000195,None,,,,,,,,,,,,a,001,2020_Jun_16_1426,n-back-testing,2020.1.3,None,
7,-0.2,-0.2,space,1,28,0,27,27,27,,,,,,,,,,,,,77.5529749999987,None,77.5529749999987,78.55205749999732,78.53723339998396,None,None,0,77.5529749999987,None,,,,,,,,,,,,a,001,2020_Jun_16_1426,n-back-testing,2020.1.3,None,
2,0.0,0.2,None,1,29,0,28,28,28,,,,,,,,,,,,,79.55240179999964,None,79.55240179999964,80.55147950001992,80.53694740001811,81.53708450001432,None,1,79.55240179999964,None,,,,,,,,,,,,a,001,2020_Jun_16_1426,n-back-testing,2020.1.3,None,
6,0.2,0.0,None,1,30,0,29,29,29,,,,,,,,,,,,,81.55242600000929,None,81.55242600000929,82.55106909997994,82.53700860001845,None,None,1,81.55242600000929,None,,,,,,,,,,,,a,001,2020_Jun_16_1426,n-back-testing,2020.1.3,None,
4,-0.2,0.0,None,1,31,0,30,30,30,,,,,,,,,,,,,83.55211649998091,None,83.55211649998091,84.55098380002892,84.53730199998245,None,None,1,83.55211649998091,None,,,,,,,,,,,,a,001,2020_Jun_16_1426,n-back-testing,2020.1.3,None,
4,-0.2,0.0,space,1,32,0,31,31,31,,,,,,,,,,,,,85.55271379998885,None,85.55271379998885,86.55105180002283,86.53767609997885,None,None,0,85.55271379998885,None,,,,,,,,,,,,a,001,2020_Jun_16_1426,n-back-testing,2020.1.3,None,
2,0.0,0.2,None,1,33,0,32,32,32,,,,,,,,,,,,,87.55031720001716,None,87.55031720001716,88.55170890002046,88.53792829997838,None,None,1,87.55031720001716,None,,,,,,,,,,,,a,001,2020_Jun_16_1426,n-back-testing,2020.1.3,None,
9,0.2,-0.2,None,1,34,0,33,33,33,,,,,,,,,,,,,89.55044690001523,None,89.55044690001523,90.54918069997802,90.53387799998745,91.53449729998829,None,1,89.55044690001523,None,,,,,,,,,,,,a,001,2020_Jun_16_1426,n-back-testing,2020.1.3,None,
9,0.2,-0.2,space,1,35,0,34,34,34,,,,,,,,,,,,,91.54976359999273,None,91.54976359999273,92.54946419998305,92.53442699997686,93.53310649999185,None,0,91.54976359999273,None,,,,,,,,,,,,a,001,2020_Jun_16_1426,n-back-testing,2020.1.3,None,
3,0.2,0.2,None,1,36,0,35,35,35,,,,,,,,,,,,,93.54915039998014,None,93.54915039998014,94.54884120001225,94.53369770001154,None,None,1,93.54915039998014,None,,,,,,,,,,,,a,001,2020_Jun_16_1426,n-back-testing,2020.1.3,None,
7,-0.2,-0.2,None,1,37,0,36,36,36,,,,,,,,,,,,,95.54906579997623,None,95.54906579997623,96.5489310999983,96.53546199999982,None,None,1,95.54906579997623,None,,,,,,,,,,,,a,001,2020_Jun_16_1426,n-back-testing,2020.1.3,None,
7,-0.2,-0.2,space,1,38,0,37,37,37,,,,,,,,,,,,,97.55039940000279,None,97.55039940000279,98.56847990001552,98.53165369998896,99.53127630002564,None,0,97.55039940000279,None,,,,,,,,,,,,a,001,2020_Jun_16_1426,n-back-testing,2020.1.3,None,
7,-0.2,-0.2,space,1,39,0,38,38,38,,,,,,,,,,,,,99.54794479999691,None,99.54794479999691,100.54737159999786,100.53114819998154,101.53045319998637,None,0,99.54794479999691,None,,,,,,,,,,,,a,001,2020_Jun_16_1426,n-back-testing,2020.1.3,None,
6,0.2,0.0,None,1,40,0,39,39,39,,,,,,,,,,,,,101.54724119999446,None,101.54724119999446,102.54636939999182,102.52972460002638,103.5294097000151,None,1,101.54724119999446,None,,,,,,,,,,,,a,001,2020_Jun_16_1426,n-back-testing,2020.1.3,None,
6,0.2,0.0,space,1,41,0,40,40,40,,,,,,,,,,,,,103.5470926000271,None,103.5470926000271,104.56278739997651,104.52912459999789,105.52876409998862,None,0,103.5470926000271,None,,,,,,,,,,,,a,001,2020_Jun_16_1426,n-back-testing,2020.1.3,None,
1,-0.2,0.2,None,1,42,0,41,41,41,,,,,,,,,,,,,105.54606949997833,None,105.54606949997833,106.54575619997922,106.52856930001872,107.52863060001982,None,1,105.54606949997833,None,,,,,,,,,,,,a,001,2020_Jun_16_1426,n-back-testing,2020.1.3,None,
5,0.0,0.0,None,1,43,0,42,42,42,,,,,,,,,,,,,107.54605210002046,None,107.54605210002046,108.56161089998204,108.5279470999958,109.52767059998587,None,1,107.54605210002046,None,,,,,,,,,,,,a,001,2020_Jun_16_1426,n-back-testing,2020.1.3,None,
3,0.2,0.2,None,1,44,0,43,43,43,,,,,,,,,,,,,109.54527559998678,None,109.54527559998678,110.56062699999893,110.52730790001806,111.52710569999181,None,1,109.54527559998678,None,,,,,,,,,,,,a,001,2020_Jun_16_1426,n-back-testing,2020.1.3,None,
1,-0.2,0.2,None,1,45,0,44,44,44,,,,,,,,,,,,,111.54477189999307,None,111.54477189999307,112.56020110001555,112.52687479997985,113.52671409997856,None,1,111.54477189999307,None,,,,,,,,,,,,a,001,2020_Jun_16_1426,n-back-testing,2020.1.3,None,
7,-0.2,-0.2,None,1,46,0,45,45,45,,,,,,,,,,,,,113.54470780002885,None,113.54470780002885,114.55995550000807,114.52624400000786,115.52595400001155,None,1,113.54470780002885,None,,,,,,,,,,,,a,001,2020_Jun_16_1426,n-back-testing,2020.1.3,None,
3,0.2,0.2,None,1,47,0,46,46,46,,,,,,,,,,,,,115.54462519998197,None,115.54462519998197,116.55932300002314,116.52578099997481,117.52557519997936,None,1,115.54462519998197,None,,,,,,,,,,,,a,001,2020_Jun_16_1426,n-back-testing,2020.1.3,None,
3,0.2,0.2,space,1,48,0,47,47,47,,,,,,,,,,,,,117.5442699000123,None,117.5442699000123,118.55881080002291,118.52528180001536,119.52500109997345,None,0,117.5442699000123,None,,,,,,,,,,,,a,001,2020_Jun_16_1426,n-back-testing,2020.1.3,None,
9,0.2,-0.2,None,1,49,0,48,48,48,,,,,,,,,,,,,119.5437619999866,None,119.5437619999866,120.55822900001658,120.52485470002284,121.52476150001166,None,1,119.5437619999866,None,,,,,,,,,,,,a,001,2020_Jun_16_1426,n-back-testing,2020.1.3,None,
7,-0.2,-0.2,None,1,50,0,49,49,49,,,,,,,,,,,,,121.5425244999933,None,121.5425244999933,122.55839209997794,122.52420919999713,123.5241120000137,None,1,121.5425244999933,None,,,,,,,,,,,,a,001,2020_Jun_16_1426,n-back-testing,2020.1.3,None,
5,0.0,0.0,None,1,51,0,50,50,50,,,,,,,,,,,,,123.54252810002072,None,123.54252810002072,124.55709690001095,124.52408489998197,125.52355019998504,None,1,123.54252810002072,None,,,,,,,,,,,,a,001,2020_Jun_16_1426,n-back-testing,2020.1.3,None,
8,0.0,-0.2,None,1,52,0,51,51,51,,,,,,,,,,,,,125.54294690000825,None,125.54294690000825,126.55730819999008,126.52419379999628,127.52308409998659,None,1,125.54294690000825,None,,,,,,,,,,,,a,001,2020_Jun_16_1426,n-back-testing,2020.1.3,None,
8,0.0,-0.2,space,1,53,0,52,52,52,,,,,,,,,,,,,127.54270240000915,None,127.54270240000915,128.5569238999742,128.52334160002647,129.52259840001352,None,0,127.54270240000915,None,,,,,,,,,,,,a,001,2020_Jun_16_1426,n-back-testing,2020.1.3,None,
7,-0.2,-0.2,None,1,54,0,53,53,53,,,,,,,,,,,,,129.54030470002908,None,129.54030470002908,130.5557307000272,130.52227730001323,131.52268489997368,None,1,129.54030470002908,None,,,,,,,,,,,,a,001,2020_Jun_16_1426,n-back-testing,2020.1.3,None,
4,-0.2,0.0,None,1,55,0,54,54,54,,,,,,,,,,,,,131.54279969999334,None,131.54279969999334,132.55503460002365,132.52169000002323,133.52141609997489,None,1,131.54279969999334,None,,,,,,,,,,,,a,001,2020_Jun_16_1426,n-back-testing,2020.1.3,None,
5,0.0,0.0,None,1,56,0,55,55,55,,,,,,,,,,,,,133.53968460002216,None,133.53968460002216,134.55461490002926,134.52122960000997,135.52087810001103,None,1,133.53968460002216,None,,,,,,,,,,,,a,001,2020_Jun_16_1426,n-back-testing,2020.1.3,None,
5,0.0,0.0,space,1,57,0,56,56,56,,,,,,,,,,,,,135.53936809999868,None,135.53936809999868,136.55426830000943,136.52087439998286,137.5209253000212,None,0,135.53936809999868,None,,,,,,,,,,,,a,001,2020_Jun_16_1426,n-back-testing,2020.1.3,None,
2,0.0,0.2,None,1,58,0,57,57,57,,,,,,,,,,,,,137.5402801000164,None,137.5402801000164,138.55568709998624,138.52030259999447,139.52118510002038,None,1,137.5402801000164,None,,,,,,,,,,,,a,001,2020_Jun_16_1426,n-back-testing,2020.1.3,None,
2,0.0,0.2,space,1,59,0,58,58,58,,,,,,,,,,,,,139.5399157999782,None,139.5399157999782,140.5530899000005,140.51967499998864,141.51950659998693,None,0,139.5399157999782,None,,,,,,,,,,,,a,001,2020_Jun_16_1426,n-back-testing,2020.1.3,None,
6,0.2,0.0,None,1,60,0,59,59,59,,,,,,,,,,,,,141.55285450001247,None,141.55285450001247,142.55250340001658,142.5375909000286,None,None,1,141.55285450001247,None,,,,,,,,,,,,a,001,2020_Jun_16_1426,n-back-testing,2020.1.3,None,
5,0.0,0.0,None,2,61,,,,,0,0,0,0,,,,,,,,,150.72649620001903,None,150.72649620001903,151.73740139999427,151.71740259998478,None,None,1,150.72649620001903,None,,143.55235389998415,None,149.6855453000171,None,,,,,,,a,001,2020_Jun_16_1426,n-back-testing,2020.1.3,None,
2,0.0,0.2,None,2,62,,,,,0,1,1,1,,,,,,,,,152.7037963999901,None,152.7037963999901,153.71678319998318,153.6839194999775,154.68339020002168,None,1,152.7037963999901,None,,,,,,,,,,,,a,001,2020_Jun_16_1426,n-back-testing,2020.1.3,None,
6,0.2,0.0,None,2,63,,,,,0,2,2,2,,,,,,,,,154.7022083000047,None,154.7022083000047,155.7179300999851,155.6839207999874,156.68347649998032,None,1,154.7022083000047,None,,,,,,,,,,,,a,001,2020_Jun_16_1426,n-back-testing,2020.1.3,None,
9,0.2,-0.2,None,2,64,,,,,0,3,3,3,,,,,,,,,156.70168579998426,None,156.70168579998426,157.7167776999995,157.68328009999823,158.68342180002946,None,1,156.70168579998426,None,,,,,,,,,,,,a,001,2020_Jun_16_1426,n-back-testing,2020.1.3,None,
3,0.2,0.2,None,2,65,,,,,0,4,4,4,,,,,,,,,158.70096970000304,None,158.70096970000304,159.71559410000918,159.682347199996,160.68223189999117,None,1,158.70096970000304,None,,,,,,,,,,,,a,001,2020_Jun_16_1426,n-back-testing,2020.1.3,None,
9,0.2,-0.2,space,2,66,,,,,0,5,5,5,,,,,,,,,160.70285790000344,None,160.70285790000344,161.7152062000241,161.68156729999464,162.68151560000842,space,1,160.70285790000344,None,0.5491322000161745,,,,,,,,,,,a,001,2020_Jun_16_1426,n-back-testing,2020.1.3,None,
7,-0.2,-0.2,None,2,67,,,,,0,6,6,6,,,,,,,,,162.70237670000643,None,162.70237670000643,163.7146308000083,163.6826501999749,164.68101960001513,None,1,162.70237670000643,None,,,,,,,,,,,,a,001,2020_Jun_16_1426,n-back-testing,2020.1.3,None,
1,-0.2,0.2,None,2,68,,,,,0,7,7,7,,,,,,,,,164.7017322999891,None,164.7017322999891,165.71487020002678,165.68154710001545,166.68143860000418,None,1,164.7017322999891,None,,,,,,,,,,,,a,001,2020_Jun_16_1426,n-back-testing,2020.1.3,None,
5,0.0,0.0,None,2,69,,,,,0,8,8,8,,,,,,,,,166.69950079999398,None,166.69950079999398,167.71342739998363,167.68122359999688,168.67986979999114,None,1,166.69950079999398,None,,,,,,,,,,,,a,001,2020_Jun_16_1426,n-back-testing,2020.1.3,None,
7,-0.2,-0.2,None,2,70,,,,,0,9,9,9,,,,,,,,,168.6972791000153,None,168.6972791000153,169.71265429997584,169.67957689997274,170.6820670000161,None,1,168.6972791000153,None,,,,,,,,,,,,a,001,2020_Jun_16_1426,n-back-testing,2020.1.3,None,
5,0.0,0.0,space,2,71,,,,,0,10,10,10,,,,,,,,,170.699913199991,None,170.699913199991,171.7126856999821,171.6802787000197,None,None,0,170.699913199991,None,,,,,,,,,,,,a,001,2020_Jun_16_1426,n-back-testing,2020.1.3,None,
6,0.2,0.0,None,2,72,,,,,0,11,11,11,,,,,,,,,172.69526319997385,None,172.69526319997385,173.69497710000724,173.6787141999812,174.67865509999683,None,1,172.69526319997385,None,,,,,,,,,,,,a,001,2020_Jun_16_1426,n-back-testing,2020.1.3,None,
3,0.2,0.2,None,2,73,,,,,0,12,12,12,,,,,,,,,174.69510870001977,None,174.69510870001977,175.694321100018,175.6784075999749,176.6786254000035,None,1,174.69510870001977,None,,,,,,,,,,,,a,001,2020_Jun_16_1426,n-back-testing,2020.1.3,None,
6,0.2,0.0,space,2,74,,,,,0,13,13,13,,,,,,,,,176.69407590001356,None,176.69407590001356,177.6938180999714,177.6775374999852,178.67863029998261,None,0,176.69407590001356,None,,,,,,,,,,,,a,001,2020_Jun_16_1426,n-back-testing,2020.1.3,None,
8,0.0,-0.2,None,2,75,,,,,0,14,14,14,,,,,,,,,178.69352279999293,None,178.69352279999293,179.69341040001018,179.6790557000204,None,None,1,178.69352279999293,None,,,,,,,,,,,,a,001,2020_Jun_16_1426,n-back-testing,2020.1.3,None,
9,0.2,-0.2,None,2,76,,,,,0,15,15,15,,,,,,,,,180.6930938999867,None,180.6930938999867,181.69277480000164,181.6773625999922,182.67904710001312,None,1,180.6930938999867,None,,,,,,,,,,,,a,001,2020_Jun_16_1426,n-back-testing,2020.1.3,None,
9,0.2,-0.2,None,2,77,,,,,0,16,16,16,,,,,,,,,182.70895840000594,None,182.70895840000594,183.71024290000787,183.67677720001666,184.67706150002778,None,1,182.70895840000594,None,,,,,,,,,,,,a,001,2020_Jun_16_1426,n-back-testing,2020.1.3,None,
1,-0.2,0.2,None,2,78,,,,,0,17,17,17,,,,,,,,,184.69235740002478,None,184.69235740002478,185.69178250001278,185.67756939999526,None,None,1,184.69235740002478,None,,,,,,,,,,,,a,001,2020_Jun_16_1426,n-back-testing,2020.1.3,None,
3,0.2,0.2,None,2,79,,,,,0,18,18,18,,,,,,,,,186.69144730002154,None,186.69144730002154,187.69118600001093,187.67653070000233,None,None,1,186.69144730002154,None,,,,,,,,,,,,a,001,2020_Jun_16_1426,n-back-testing,2020.1.3,None,
5,0.0,0.0,None,2,80,,,,,0,19,19,19,,,,,,,,,188.6920422000112,None,188.6920422000112,189.69066949997796,189.67680860002292,None,None,1,188.6920422000112,None,,,,,,,,,,,,a,001,2020_Jun_16_1426,n-back-testing,2020.1.3,None,
3,0.2,0.2,space,2,81,,,,,0,20,20,20,,,,,,,,,190.69102650001878,None,190.69102650001878,191.6910662999726,191.6765219999943,None,None,0,190.69102650001878,None,,,,,,,,,,,,a,001,2020_Jun_16_1426,n-back-testing,2020.1.3,None,
4,-0.2,0.0,None,2,82,,,,,0,21,21,21,,,,,,,,,192.69125520001398,None,192.69125520001398,193.69000719999894,193.6754757000017,None,None,1,192.69125520001398,None,,,,,,,,,,,,a,001,2020_Jun_16_1426,n-back-testing,2020.1.3,None,
7,-0.2,-0.2,None,2,83,,,,,0,22,22,22,,,,,,,,,194.69041729997844,194.69041729997844,194.69041729997844,195.68976949999342,195.6762448999798,194.69041729997844,None,1,194.69041729997844,194.69041729997844,,,,,,,,,,,,a,001,2020_Jun_16_1426,n-back-testing,2020.1.3,None,
4,-0.2,0.0,space,2,84,,,,,0,23,23,23,,,,,,,,,196.69028430001345,196.69028430001345,196.69028430001345,197.68973350001033,197.67620859999442,196.69028430001345,None,0,196.69028430001345,196.69028430001345,,,,,,,,,,,,a,001,2020_Jun_16_1426,n-back-testing,2020.1.3,None,
4,-0.2,0.0,None,2,85,,,,,0,24,24,24,,,,,,,,,198.69002089998685,198.69002089998685,198.69002089998685,199.69072850001976,199.67683160002343,198.69002089998685,None,1,198.69002089998685,198.69002089998685,,,,,,,,,,,,a,001,2020_Jun_16_1426,n-back-testing,2020.1.3,None,
5,0.0,0.0,None,2,86,,,,,0,25,25,25,,,,,,,,,200.69022950000362,None,200.69022950000362,201.6878655999899,201.67341049999231,202.68774309998844,None,1,200.69022950000362,None,,,,,,,,,,,,a,001,2020_Jun_16_1426,n-back-testing,2020.1.3,None,
2,0.0,0.2,None,2,87,,,,,0,26,26,26,,,,,,,,,202.70588710001903,None,202.70588710001903,203.72063140000682,203.68786940001883,204.68717340001604,None,1,202.70588710001903,None,,,,,,,,,,,,a,001,2020_Jun_16_1426,n-back-testing,2020.1.3,None,
6,0.2,0.0,None,2,88,,,,,0,27,27,27,,,,,,,,,204.7053966000094,None,204.7053966000094,205.72014019999187,205.68725660000928,206.68659900000785,None,1,204.7053966000094,None,,,,,,,,,,,,a,001,2020_Jun_16_1426,n-back-testing,2020.1.3,None,
7,-0.2,-0.2,None,2,89,,,,,0,28,28,28,,,,,,,,,206.70505910000065,None,206.70505910000065,207.72003239998594,207.6863447999931,208.6863581999787,None,1,206.70505910000065,None,,,,,,,,,,,,a,001,2020_Jun_16_1426,n-back-testing,2020.1.3,None,
6,0.2,0.0,space,2,90,,,,,0,29,29,29,,,,,,,,,208.70524310000474,None,208.70524310000474,209.7073756000027,209.689314200019,None,None,0,208.70524310000474,None,,,,,,,,,,,,a,001,2020_Jun_16_1426,n-back-testing,2020.1.3,None,
8,0.0,-0.2,None,2,91,,,,,0,30,30,30,,,,,,,,,210.705049399985,None,210.705049399985,211.70864670001902,211.6888116999762,212.6865324000246,None,1,210.705049399985,None,,,,,,,,,,,,a,001,2020_Jun_16_1426,n-back-testing,2020.1.3,None,
2,0.0,0.2,None,2,92,,,,,0,31,31,31,,,,,,,,,212.70466049999231,None,212.70466049999231,213.71837840002263,213.68488289997913,214.6848662000266,None,1,212.70466049999231,None,,,,,,,,,,,,a,001,2020_Jun_16_1426,n-back-testing,2020.1.3,None,
8,0.0,-0.2,space,2,93,,,,,0,32,32,32,,,,,,,,,214.70369769999525,None,214.70369769999525,215.71779329999117,215.6845949999988,216.68412200000603,None,0,214.70369769999525,None,,,,,,,,,,,,a,001,2020_Jun_16_1426,n-back-testing,2020.1.3,None,
9,0.2,-0.2,None,2,94,,,,,0,33,33,33,,,,,,,,,216.7039321999764,None,216.7039321999764,217.71712490002392,217.68518540001241,218.6842980000074,None,1,216.7039321999764,None,,,,,,,,,,,,a,001,2020_Jun_16_1426,n-back-testing,2020.1.3,None,
6,0.2,0.0,None,2,95,,,,,0,34,34,34,,,,,,,,,218.70413460000418,None,218.70413460000418,219.71807539998554,219.68437049997738,220.68320450000465,None,1,218.70413460000418,None,,,,,,,,,,,,a,001,2020_Jun_16_1426,n-back-testing,2020.1.3,None,
9,0.2,-0.2,space,2,96,,,,,0,35,35,35,,,,,,,,,220.70408649998717,None,220.70408649998717,221.71672690002015,221.68572680000216,222.68247110000812,None,0,220.70408649998717,None,,,,,,,,,,,,a,001,2020_Jun_16_1426,n-back-testing,2020.1.3,None,
4,-0.2,0.0,None,2,97,,,,,0,36,36,36,,,,,,,,,222.7024737999891,None,222.7024737999891,223.71583739999915,223.68264309997903,224.68413489998784,None,1,222.7024737999891,None,,,,,,,,,,,,a,001,2020_Jun_16_1426,n-back-testing,2020.1.3,None,
3,0.2,0.2,None,2,98,,,,,0,37,37,37,,,,,,,,,224.70109440002125,None,224.70109440002125,225.7168692999985,225.68313820002368,226.68221340002492,None,1,224.70109440002125,None,,,,,,,,,,,,a,001,2020_Jun_16_1426,n-back-testing,2020.1.3,None,
8,0.0,-0.2,None,2,99,,,,,0,38,38,38,,,,,,,,,226.70298539998475,None,226.70298539998475,227.71622790000401,227.68340650002938,228.68182840000372,None,1,226.70298539998475,None,,,,,,,,,,,,a,001,2020_Jun_16_1426,n-back-testing,2020.1.3,None,
3,0.2,0.2,space,2,100,,,,,0,39,39,39,,,,,,,,,228.7024391000159,None,228.7024391000159,229.7146779000177,229.6824144999846,230.68331489997217,None,0,228.7024391000159,None,,,,,,,,,,,,a,001,2020_Jun_16_1426,n-back-testing,2020.1.3,None,
1,-0.2,0.2,None,2,101,,,,,0,40,40,40,,,,,,,,,230.70016589999432,None,230.70016589999432,231.71509349998087,231.6819824000122,232.68074199999683,None,1,230.70016589999432,None,,,,,,,,,,,,a,001,2020_Jun_16_1426,n-back-testing,2020.1.3,None,
4,-0.2,0.0,None,2,102,,,,,0,41,41,41,,,,,,,,,232.70138189999852,None,232.70138189999852,233.71359579998534,233.68012219999218,234.68023840000387,None,1,232.70138189999852,None,,,,,,,,,,,,a,001,2020_Jun_16_1426,n-back-testing,2020.1.3,None,
2,0.0,0.2,None,2,103,,,,,0,42,42,42,,,,,,,,,234.69727529998636,None,234.69727529998636,235.69785880000563,235.6816198999877,None,None,1,234.69727529998636,None,,,,,,,,,,,,a,001,2020_Jun_16_1426,n-back-testing,2020.1.3,None,
4,-0.2,0.0,space,2,104,,,,,0,43,43,43,,,,,,,,,236.69629430002533,None,236.69629430002533,237.69592169998214,237.6796373000252,238.68007180001587,None,0,236.69629430002533,None,,,,,,,,,,,,a,001,2020_Jun_16_1426,n-back-testing,2020.1.3,None,
8,0.0,-0.2,None,2,105,,,,,0,44,44,44,,,,,,,,,238.69625019998057,None,238.69625019998057,239.6954777999781,239.6786803000141,240.67887359997258,None,1,238.69625019998057,None,,,,,,,,,,,,a,001,2020_Jun_16_1426,n-back-testing,2020.1.3,None,
5,0.0,0.0,None,2,106,,,,,0,45,45,45,,,,,,,,,240.69491010002093,None,240.69491010002093,241.69463209999958,241.67837899998995,242.6780539000174,None,1,240.69491010002093,None,,,,,,,,,,,,a,001,2020_Jun_16_1426,n-back-testing,2020.1.3,None,
1,-0.2,0.2,None,2,107,,,,,0,46,46,46,,,,,,,,,242.6943495000014,None,242.6943495000014,243.69418920000317,243.67865969997365,None,None,1,242.6943495000014,None,,,,,,,,,,,,a,001,2020_Jun_16_1426,n-back-testing,2020.1.3,None,
5,0.0,0.0,space,2,108,,,,,0,47,47,47,,,,,,,,,244.6937833999982,None,244.6937833999982,245.69344539998565,245.67773190001026,None,None,0,244.6937833999982,None,,,,,,,,,,,,a,001,2020_Jun_16_1426,n-back-testing,2020.1.3,None,
3,0.2,0.2,None,2,109,,,,,0,48,48,48,,,,,,,,,246.69312790001277,None,246.69312790001277,247.69291250000242,247.6777125999797,None,None,1,246.69312790001277,None,,,,,,,,,,,,a,001,2020_Jun_16_1426,n-back-testing,2020.1.3,None,
6,0.2,0.0,None,2,110,,,,,0,49,49,49,,,,,,,,,248.6949340000283,None,248.6949340000283,249.7102787999902,249.6768585999962,250.67702529998496,None,1,248.6949340000283,None,,,,,,,,,,,,a,001,2020_Jun_16_1426,n-back-testing,2020.1.3,None,
1,-0.2,0.2,None,2,111,,,,,0,50,50,50,,,,,,,,,250.69221030001063,None,250.69221030001063,251.69204380002338,251.6774766999879,None,None,1,250.69221030001063,None,,,,,,,,,,,,a,001,2020_Jun_16_1426,n-back-testing,2020.1.3,None,
3,0.2,0.2,None,2,112,,,,,0,51,51,51,,,,,,,,,252.69300919998204,None,252.69300919998204,253.6915342999855,253.67651249998016,None,None,1,252.69300919998204,None,,,,,,,,,,,,a,001,2020_Jun_16_1426,n-back-testing,2020.1.3,None,
1,-0.2,0.2,space,2,113,,,,,0,52,52,52,,,,,,,,,254.691734299995,None,254.691734299995,255.69114299997455,255.67726750002475,None,None,0,254.691734299995,None,,,,,,,,,,,,a,001,2020_Jun_16_1426,n-back-testing,2020.1.3,None,
2,0.0,0.2,None,2,114,,,,,0,53,53,53,,,,,,,,,256.69162840000354,None,256.69162840000354,257.6903806999908,257.67586339998525,258.6774048000225,None,1,256.69162840000354,None,,,,,,,,,,,,a,001,2020_Jun_16_1426,n-back-testing,2020.1.3,None,
1,-0.2,0.2,space,2,115,,,,,0,54,54,54,,,,,,,,,258.69135049998295,None,258.69135049998295,259.6904849000275,259.6756376000121,None,None,0,258.69135049998295,None,,,,,,,,,,,,a,001,2020_Jun_16_1426,n-back-testing,2020.1.3,None,
1,-0.2,0.2,None,2,116,,,,,0,55,55,55,,,,,,,,,260.7065202000085,None,260.7065202000085,261.7070071999915,261.67631700000493,262.6891333999811,None,1,260.7065202000085,None,,,,,,,,,,,,a,001,2020_Jun_16_1426,n-back-testing,2020.1.3,None,
7,-0.2,-0.2,None,2,117,,,,,0,56,56,56,,,,,,,,,262.70661230001133,None,262.70661230001133,263.72221600002376,263.68891229998553,264.6886290999828,None,1,262.70661230001133,None,,,,,,,,,,,,a,001,2020_Jun_16_1426,n-back-testing,2020.1.3,None,
2,0.0,0.2,None,2,118,,,,,0,57,57,57,,,,,,,,,264.7071096000145,None,264.7071096000145,265.7095262000221,265.6911092000082,None,None,1,264.7071096000145,None,,,,,,,,,,,,a,001,2020_Jun_16_1426,n-back-testing,2020.1.3,None,
7,-0.2,-0.2,space,2,119,,,,,0,58,58,58,,,,,,,,,266.7071268999716,None,266.7071268999716,267.7212251999881,267.6880990000209,268.6878412999795,None,0,266.7071268999716,None,,,,,,,,,,,,a,001,2020_Jun_16_1426,n-back-testing,2020.1.3,None,
6,0.2,0.0,None,2,120,,,,,0,59,59,59,,,,,,,,,268.7067761999788,None,268.7067761999788,269.7207251000218,269.6877139999997,270.68727170000784,None,1,268.7067761999788,None,,,,,,,,,,,,a,001,2020_Jun_16_1426,n-back-testing,2020.1.3,None,
4,-0.2,0.0,None,3,121,,,,,,,,,0,0,0,0,,,,,280.7582255000016,None,280.7582255000016,281.7714876999962,281.7529301000177,None,None,1,280.7582255000016,None,,,,,,270.70911230001366,None,279.70369719999144,None,,,a,001,2020_Jun_16_1426,n-back-testing,2020.1.3,None,
2,0.0,0.2,None,3,122,,,,,,,,,0,1,1,1,,,,,282.7210754000116,None,282.7210754000116,283.71821279998403,283.70423039997695,None,None,1,282.7210754000116,None,,,,,,,,,,,,a,001,2020_Jun_16_1426,n-back-testing,2020.1.3,None,
9,0.2,-0.2,None,3,123,,,,,,,,,0,2,2,2,,,,,284.72098990000086,None,284.72098990000086,285.7182589999866,285.70430909999413,None,None,1,284.72098990000086,None,,,,,,,,,,,,a,001,2020_Jun_16_1426,n-back-testing,2020.1.3,None,
4,-0.2,0.0,space,3,124,,,,,,,,,0,3,3,3,,,,,286.72040829999605,None,286.72040829999605,287.7188938999898,287.7053852999816,None,space,1,286.72040829999605,None,0.5879041000152938,,,,,,,,,,,a,001,2020_Jun_16_1426,n-back-testing,2020.1.3,None,
3,0.2,0.2,None,3,125,,,,,,,,,0,4,4,4,,,,,288.735801599978,None,288.735801599978,289.75007080001524,289.70330940000713,None,None,1,288.735801599978,None,,,,,,,,,,,,a,001,2020_Jun_16_1426,n-back-testing,2020.1.3,None,
9,0.2,-0.2,space,3,126,,,,,,,,,0,5,5,5,,,,,290.71863060002215,None,290.71863060002215,291.7350554000004,291.70480090001365,None,None,0,290.71863060002215,None,,,,,,,,,,,,a,001,2020_Jun_16_1426,n-back-testing,2020.1.3,None,
1,-0.2,0.2,None,3,127,,,,,,,,,0,6,6,6,,,,,292.7178264000104,None,292.7178264000104,293.7177674000268,293.7038569999859,None,None,1,292.7178264000104,None,,,,,,,,,,,,a,001,2020_Jun_16_1426,n-back-testing,2020.1.3,None,
1,-0.2,0.2,None,3,128,,,,,,,,,0,7,7,7,,,,,294.71529379999265,None,294.71529379999265,295.71563920000335,295.70030399999814,None,None,1,294.71529379999265,None,,,,,,,,,,,,a,001,2020_Jun_16_1426,n-back-testing,2020.1.3,None,
6,0.2,0.0,None,3,129,,,,,,,,,0,8,8,8,,,,,296.71653799997875,None,296.71653799997875,297.71636860002764,297.7026263999869,None,None,1,296.71653799997875,None,,,,,,,,,,,,a,001,2020_Jun_16_1426,n-back-testing,2020.1.3,None,
1,-0.2,0.2,space,3,130,,,,,,,,,0,9,9,9,,,,,298.71678219997557,None,298.71678219997557,299.7317111999728,299.69844040001044,300.69797620002646,None,0,298.71678219997557,None,,,,,,,,,,,,a,001,2020_Jun_16_1426,n-back-testing,2020.1.3,None,
5,0.0,0.0,None,3,131,,,,,,,,,0,10,10,10,,,,,300.7158592999913,None,300.7158592999913,301.73035740002524,301.69716280000284,302.697030499985,None,1,300.7158592999913,None,,,,,,,,,,,,a,001,2020_Jun_16_1426,n-back-testing,2020.1.3,None,
6,0.2,0.0,space,3,132,,,,,,,,,0,11,11,11,,,,,302.7159371000016,None,302.7159371000016,303.72984869999345,303.69664169999305,304.6961572999717,None,0,302.7159371000016,None,,,,,,,,,,,,a,001,2020_Jun_16_1426,n-back-testing,2020.1.3,None,
3,0.2,0.2,None,3,133,,,,,,,,,0,12,12,12,,,,,304.7145926000085,None,304.7145926000085,305.72903480002424,305.6958907999797,306.6953941999818,None,1,304.7145926000085,None,,,,,,,,,,,,a,001,2020_Jun_16_1426,n-back-testing,2020.1.3,None,
1,-0.2,0.2,None,3,134,,,,,,,,,0,13,13,13,,,,,306.71435590001056,None,306.71435590001056,307.7284423999954,307.6951866999734,308.6948376999935,None,1,306.71435590001056,None,,,,,,,,,,,,a,001,2020_Jun_16_1426,n-back-testing,2020.1.3,None,
7,-0.2,-0.2,None,3,135,,,,,,,,,0,14,14,14,,,,,308.714665699983,None,308.714665699983,309.72784589999355,309.6946058999747,310.6941845000256,None,1,308.714665699983,None,,,,,,,,,,,,a,001,2020_Jun_16_1426,n-back-testing,2020.1.3,None,
9,0.2,-0.2,None,3,136,,,,,,,,,0,15,15,15,,,,,310.71331429999555,None,310.71331429999555,311.7273288000142,311.69387179997284,312.6937302000006,None,1,310.71331429999555,None,,,,,,,,,,,,a,001,2020_Jun_16_1426,n-back-testing,2020.1.3,None,
1,-0.2,0.2,space,3,137,,,,,,,,,0,16,16,16,,,,,312.7133566000266,None,312.7133566000266,313.72674710000865,313.693466799974,314.69339779997244,None,0,312.7133566000266,None,,,,,,,,,,,,a,001,2020_Jun_16_1426,n-back-testing,2020.1.3,None,
3,0.2,0.2,None,3,138,,,,,,,,,0,17,17,17,,,,,314.7129291999736,None,314.7129291999736,315.72635489999084,315.69293860002654,316.6926142000011,None,1,314.7129291999736,None,,,,,,,,,,,,a,001,2020_Jun_16_1426,n-back-testing,2020.1.3,None,
7,-0.2,-0.2,None,3,139,,,,,,,,,0,18,18,18,,,,,316.71177589998115,None,316.71177589998115,317.72574999998324,317.69234170002164,318.6930453000241,None,1,316.71177589998115,None,,,,,,,,,,,,a,001,2020_Jun_16_1426,n-back-testing,2020.1.3,None,
5,0.0,0.0,None,3,140,,,,,,,,,0,19,19,19,,,,,318.7118546999991,None,318.7118546999991,319.7252163999947,319.69216989999404,320.69171970000025,None,1,318.7118546999991,None,,,,,,,,,,,,a,001,2020_Jun_16_1426,n-back-testing,2020.1.3,None,
3,0.2,0.2,space,3,141,,,,,,,,,0,20,20,20,,,,,320.713282599987,None,320.713282599987,321.7249732000055,321.69153319997713,322.6910859000054,None,0,320.713282599987,None,,,,,,,,,,,,a,001,2020_Jun_16_1426,n-back-testing,2020.1.3,None,
8,0.0,-0.2,None,3,142,,,,,,,,,0,21,21,21,,,,,322.71065070002805,None,322.71065070002805,323.7244294999982,323.69123669998953,324.6911944000167,None,1,322.71065070002805,None,,,,,,,,,,,,a,001,2020_Jun_16_1426,n-back-testing,2020.1.3,None,
7,-0.2,-0.2,None,3,143,,,,,,,,,0,22,22,22,,,,,324.710774999985,None,324.710774999985,325.7240075999871,325.69061099999817,326.69074350001756,None,1,324.710774999985,None,,,,,,,,,,,,a,001,2020_Jun_16_1426,n-back-testing,2020.1.3,None,
4,-0.2,0.0,None,3,144,,,,,,,,,0,23,23,23,,,,,326.7094473000034,None,326.7094473000034,327.72318600001745,327.6906963000074,328.68967809999594,None,1,326.7094473000034,None,,,,,,,,,,,,a,001,2020_Jun_16_1426,n-back-testing,2020.1.3,None,
8,0.0,-0.2,space,3,145,,,,,,,,,0,24,24,24,,,,,328.7097538000089,None,328.7097538000089,329.72272570000496,329.68942629999947,330.6890842000139,None,0,328.7097538000089,None,,,,,,,,,,,,a,001,2020_Jun_16_1426,n-back-testing,2020.1.3,None,
5,0.0,0.0,None,3,146,,,,,,,,,0,25,25,25,,,,,330.7074224000098,None,330.7074224000098,331.7222131000017,331.6893162999768,332.68876789999194,None,1,330.7074224000098,None,,,,,,,,,,,,a,001,2020_Jun_16_1426,n-back-testing,2020.1.3,None,
2,0.0,0.2,None,3,147,,,,,,,,,0,26,26,26,,,,,332.70770279999124,None,332.70770279999124,333.72170819999883,333.6884093999979,334.68861449998803,None,1,332.70770279999124,None,,,,,,,,,,,,a,001,2020_Jun_16_1426,n-back-testing,2020.1.3,None,
6,0.2,0.0,None,3,148,,,,,,,,,0,27,27,27,,,,,334.70786859997315,None,334.70786859997315,335.7214706999948,335.68890349997673,336.6876325000194,None,1,334.70786859997315,None,,,,,,,,,,,,a,001,2020_Jun_16_1426,n-back-testing,2020.1.3,None,
5,0.0,0.0,space,3,149,,,,,,,,,0,28,28,28,,,,,336.72383979998995,None,336.72383979998995,337.73955820000265,337.70583089999855,None,None,0,336.72383979998995,None,,,,,,,,,,,,a,001,2020_Jun_16_1426,n-back-testing,2020.1.3,None,
2,0.0,0.2,space,3,150,,,,,,,,,0,29,29,29,,,,,338.7224738000077,None,338.7224738000077,339.7201714999974,339.7051725999918,None,None,0,338.7224738000077,None,,,,,,,,,,,,a,001,2020_Jun_16_1426,n-back-testing,2020.1.3,None,
5,0.0,0.0,None,3,151,,,,,,,,,0,30,30,30,,,,,340.7218968999805,None,340.7218968999805,341.7196682000067,341.70504109998,None,None,1,340.7218968999805,None,,,,,,,,,,,,a,001,2020_Jun_16_1426,n-back-testing,2020.1.3,None,
2,0.0,0.2,None,3,152,,,,,,,,,0,31,31,31,,,,,342.7213020999916,None,342.7213020999916,343.71919700002763,343.70472689997405,None,None,1,342.7213020999916,None,,,,,,,,,,,,a,001,2020_Jun_16_1426,n-back-testing,2020.1.3,None,
9,0.2,-0.2,None,3,153,,,,,,,,,0,32,32,32,,,,,344.72121709998464,None,344.72121709998464,345.71926350001013,345.7052587000071,None,None,1,344.72121709998464,None,,,,,,,,,,,,a,001,2020_Jun_16_1426,n-back-testing,2020.1.3,None,
6,0.2,0.0,None,3,154,,,,,,,,,0,33,33,33,,,,,346.7209381000139,None,346.7209381000139,347.718716399977,347.7045986999874,None,None,1,346.7209381000139,None,,,,,,,,,,,,a,001,2020_Jun_16_1426,n-back-testing,2020.1.3,None,
3,0.2,0.2,None,3,155,,,,,,,,,0,34,34,34,,,,,348.7209946999792,None,348.7209946999792,349.71869090001564,349.7045215999824,None,None,1,348.7209946999792,None,,,,,,,,,,,,a,001,2020_Jun_16_1426,n-back-testing,2020.1.3,None,
9,0.2,-0.2,space,3,156,,,,,,,,,0,35,35,35,,,,,350.72152010002173,None,350.72152010002173,351.71830280002905,351.70464459998766,None,None,0,350.72152010002173,None,,,,,,,,,,,,a,001,2020_Jun_16_1426,n-back-testing,2020.1.3,None,
7,-0.2,-0.2,None,3,157,,,,,,,,,0,36,36,36,,,,,352.736155999999,None,352.736155999999,353.7377753999899,353.7047508999822,None,None,1,352.736155999999,None,,,,,,,,,,,,a,001,2020_Jun_16_1426,n-back-testing,2020.1.3,None,
5,0.0,0.0,None,3,158,,,,,,,,,0,37,37,37,,,,,354.7358168999781,None,354.7358168999781,355.7373726000078,355.70476619998226,None,None,1,354.7358168999781,None,,,,,,,,,,,,a,001,2020_Jun_16_1426,n-back-testing,2020.1.3,None,
1,-0.2,0.2,None,3,159,,,,,,,,,0,38,38,38,,,,,356.72547210002085,None,356.72547210002085,357.73765060002916,357.717735800019,None,None,1,356.72547210002085,None,,,,,,,,,,,,a,001,2020_Jun_16_1426,n-back-testing,2020.1.3,None,
7,-0.2,-0.2,None,3,160,,,,,,,,,0,39,39,39,,,,,358.7196610000101,None,358.7196610000101,359.73445220000576,359.7013289000024,None,None,1,358.7196610000101,None,,,,,,,,,,,,a,001,2020_Jun_16_1426,n-back-testing,2020.1.3,None,
5,0.0,0.0,space,3,161,,,,,,,,,0,40,40,40,,,,,360.7174860999803,None,360.7174860999803,361.717375200009,361.70457629999146,None,None,0,360.7174860999803,None,,,,,,,,,,,,a,001,2020_Jun_16_1426,n-back-testing,2020.1.3,None,
7,-0.2,-0.2,None,3,162,,,,,,,,,0,41,41,41,,,,,362.7190552999964,None,362.7190552999964,363.7361644000048,363.69898970000213,364.7024789000279,None,1,362.7190552999964,None,,,,,,,,,,,,a,001,2020_Jun_16_1426,n-back-testing,2020.1.3,None,
3,0.2,0.2,None,3,163,,,,,,,,,0,42,42,42,,,,,364.7180947000161,None,364.7180947000161,365.73186810000334,365.6986200999818,366.6992196000065,None,1,364.7180947000161,None,,,,,,,,,,,,a,001,2020_Jun_16_1426,n-back-testing,2020.1.3,None,
8,0.0,-0.2,None,3,164,,,,,,,,,0,43,43,43,,,,,366.7157502999762,None,366.7157502999762,367.71444910002174,367.6981102999998,368.6968238999834,None,1,366.7157502999762,None,,,,,,,,,,,,a,001,2020_Jun_16_1426,n-back-testing,2020.1.3,None,
7,-0.2,-0.2,space,3,165,,,,,,,,,0,44,44,44,,,,,368.71557350002695,None,368.71557350002695,369.7299893000163,369.69652529997984,370.69667069998104,None,0,368.71557350002695,None,,,,,,,,,,,,a,001,2020_Jun_16_1426,n-back-testing,2020.1.3,None,
9,0.2,-0.2,None,3,166,,,,,,,,,0,45,45,45,,,,,370.71482190000825,None,370.71482190000825,371.7296074000187,371.69592059997376,372.69677620002767,None,1,370.71482190000825,None,,,,,,,,,,,,a,001,2020_Jun_16_1426,n-back-testing,2020.1.3,None,
9,0.2,-0.2,None,3,167,,,,,,,,,0,46,46,46,,,,,372.71517139999196,None,372.71517139999196,373.728674700018,373.69539960002294,374.69513850001385,None,1,372.71517139999196,None,,,,,,,,,,,,a,001,2020_Jun_16_1426,n-back-testing,2020.1.3,None,
3,0.2,0.2,None,3,168,,,,,,,,,0,47,47,47,,,,,374.71460790000856,None,374.71460790000856,375.7282463000156,375.69480420002947,376.6943696999806,None,1,374.71460790000856,None,,,,,,,,,,,,a,001,2020_Jun_16_1426,n-back-testing,2020.1.3,None,
1,-0.2,0.2,None,3,169,,,,,,,,,0,48,48,48,,,,,376.7136018999736,None,376.7136018999736,377.7275461999816,377.6940593000036,378.6937828999944,None,1,376.7136018999736,None,,,,,,,,,,,,a,001,2020_Jun_16_1426,n-back-testing,2020.1.3,None,
5,0.0,0.0,None,3,170,,,,,,,,,0,49,49,49,,,,,378.7127316999831,None,378.7127316999831,379.72687650000444,379.69365129998187,380.69330829998944,None,1,378.7127316999831,None,,,,,,,,,,,,a,001,2020_Jun_16_1426,n-back-testing,2020.1.3,None,
3,0.2,0.2,space,3,171,,,,,,,,,0,50,50,50,,,,,380.7126708999858,None,380.7126708999858,381.72645660000853,381.6930373000214,382.6928614000208,None,0,380.7126708999858,None,,,,,,,,,,,,a,001,2020_Jun_16_1426,n-back-testing,2020.1.3,None,
4,-0.2,0.0,None,3,172,,,,,,,,,0,51,51,51,,,,,382.7120069999946,None,382.7120069999946,383.72595689998707,383.69253310002387,384.69227130000945,None,1,382.7120069999946,None,,,,,,,,,,,,a,001,2020_Jun_16_1426,n-back-testing,2020.1.3,None,
7,-0.2,-0.2,None,3,173,,,,,,,,,0,52,52,52,,,,,384.713491100003,None,384.713491100003,385.7254507999751,385.69202660000883,386.6926776000182,None,1,384.713491100003,None,,,,,,,,,,,,a,001,2020_Jun_16_1426,n-back-testing,2020.1.3,None,
4,-0.2,0.0,None,3,174,,,,,,,,,0,53,53,53,,,,,386.71257510001305,None,386.71257510001305,387.7248989000218,387.69153760001063,388.6915039999876,None,1,386.71257510001305,None,,,,,,,,,,,,a,001,2020_Jun_16_1426,n-back-testing,2020.1.3,None,
4,-0.2,0.0,space,3,175,,,,,,,,,0,54,54,54,,,,,388.71127480000723,None,388.71127480000723,389.7250596000231,389.6910998999956,390.69097659998806,None,0,388.71127480000723,None,,,,,,,,,,,,a,001,2020_Jun_16_1426,n-back-testing,2020.1.3,None,
5,0.0,0.0,None,3,176,,,,,,,,,0,55,55,55,,,,,390.71118909999495,None,390.71118909999495,391.72421289997874,391.6916931999731,392.69144550000783,None,1,390.71118909999495,None,,,,,,,,,,,,a,001,2020_Jun_16_1426,n-back-testing,2020.1.3,None,
6,0.2,0.0,None,3,177,,,,,,,,,0,56,56,56,,,,,392.7101357000065,None,392.7101357000065,393.724088500021,393.6907166999881,394.69126120000146,None,1,392.7101357000065,None,,,,,,,,,,,,a,001,2020_Jun_16_1426,n-back-testing,2020.1.3,None,
2,0.0,0.2,None,3,178,,,,,,,,,0,57,57,57,,,,,394.709558499977,None,394.709558499977,395.7228456999874,395.6895237999852,396.68939479999244,None,1,394.709558499977,None,,,,,,,,,,,,a,001,2020_Jun_16_1426,n-back-testing,2020.1.3,None,
7,-0.2,-0.2,None,3,179,,,,,,,,,0,58,58,58,,,,,396.7076552999788,None,396.7076552999788,397.72232340002665,397.68914899998344,398.6914327000268,None,1,396.7076552999788,None,,,,,,,,,,,,a,001,2020_Jun_16_1426,n-back-testing,2020.1.3,None,
6,0.2,0.0,space,3,180,,,,,,,,,0,59,59,59,,,,,398.7121666999883,None,398.7121666999883,399.7220978999976,399.68912240001373,400.6884000999853,None,0,398.7121666999883,None,,,,,,,,,,,,a,001,2020_Jun_16_1426,n-back-testing,2020.1.3,None,
,,,,,,,,,,,,,,,,,,,,,,,,,,,,,,,,,,,,,,,,,400.70536730001913,None,,,,,,,
